{
  "resourceType": "List",
  "id": "val1",
  "contained": [
    {
      "resourceType": "Patient",
      "id" : "pat2",
      "link" : [{
        "other" : { "reference" : "#pat3"}
      }]
    },
    {
      "resourceType": "Patient",
      "id" : "pat3",
      "link" : [{
        "other" : { "reference" : "#pat2"}
      }]
    }
  ],
  "status": "current",
  "mode": "changes",
  "subject": {
    "reference": "#pat"
  }
}